time,ax,ay,az,atotal
0.09591984748840332,0.03,0.1,-0.05,0.11
0.10172390937805176,0.0,0.09,-0.23,0.24
0.10996699333190918,0.01,0.15,-0.27,0.3
0.11378312110900879,-0.06,0.18,-0.23,0.29
0.12092709541320801,-0.11,0.23,-0.12,0.28
0.12448406219482422,-0.1,0.26,0.01,0.27
0.13326001167297363,-0.09,0.24,0.1,0.27
0.142380952835083,-0.06,0.21,0.19,0.28
0.14640593528747559,-0.05,0.17,0.2,0.26
0.154188871383667,-0.05,0.11,0.21,0.24
0.17306017875671387,-0.06,0.09,0.2,0.22
0.17625117301940918,-0.04,0.09,0.19,0.21
0.18295502662658691,0.01,0.08,0.17,0.18
0.19086098670959473,0.07,0.05,0.17,0.19
0.19483113288879395,0.09,0.02,0.13,0.15
0.20116496086120605,0.08,-0.02,0.04,0.09
0.21121597290039062,0.07,-0.02,-0.01,0.07
0.2149498462677002,0.06,-0.04,-0.03,0.07
0.22112488746643066,0.08,-0.07,-0.01,0.1
0.22681403160095215,0.14,-0.05,0.05,0.15
0.24437499046325684,0.2,-0.09,0.08,0.23
0.2502858638763428,0.2,-0.14,0.04,0.24
0.25475502014160156,0.21,-0.17,-0.03,0.27
0.26115918159484863,0.22,-0.14,-0.03,0.26
0.2653629779815674,0.23,-0.1,0.01,0.25
0.2737281322479248,0.2,-0.07,0.09,0.23
0.28210997581481934,0.14,-0.04,0.19,0.23
0.28630614280700684,0.07,0.0,0.23,0.24
0.2933509349822998,0.03,0.04,0.21,0.21
0.3015320301055908,0.01,0.06,0.13,0.14
0.32004714012145996,0.0,0.09,0.07,0.11
0.32364797592163086,0.04,0.11,0.01,0.11
0.32991719245910645,0.08,0.09,-0.03,0.12
0.3338768482208252,0.09,0.12,-0.02,0.15
0.3409888744354248,0.06,0.15,0.05,0.16
0.34421205520629883,-0.01,0.17,0.14,0.22
0.35426807403564453,-0.08,0.17,0.23,0.29
0.36104798316955566,-0.12,0.15,0.24,0.3
0.36469388008117676,-0.13,0.13,0.19,0.26
0.37218689918518066,-0.11,0.12,0.15,0.22
0.39072704315185547,-0.08,0.11,0.11,0.17
0.3943440914154053,-0.04,0.12,0.09,0.15
0.400738000869751,-0.03,0.1,0.1,0.14
0.4060640335083008,-0.06,0.07,0.12,0.15
0.4128379821777344,-0.14,0.08,0.1,0.18
0.41654300689697266,-0.17,0.12,0.08,0.22
0.4299030303955078,-0.19,0.13,0.05,0.23
0.4339010715484619,-0.2,0.14,0.03,0.24
0.44087910652160645,-0.21,0.15,0.0,0.25
0.4452178478240967,-0.25,0.17,0.0,0.3
0.4642951488494873,-0.27,0.18,0.0,0.32
0.4702770709991455,-0.26,0.16,0.02,0.3
0.4754979610443115,-0.21,0.15,0.07,0.26
0.4814331531524658,-0.11,0.14,0.15,0.23
0.4939701557159424,-0.03,0.13,0.16,0.2
0.4999091625213623,0.02,0.11,0.1,0.15
0.5095951557159424,0.08,0.13,0.04,0.15
0.5133130550384521,0.1,0.13,-0.03,0.16
0.5197689533233643,0.15,0.11,-0.06,0.19
0.5244271755218506,0.19,0.08,-0.1,0.22
0.5417850017547607,0.23,0.01,-0.12,0.25
0.5453760623931885,0.28,-0.05,-0.12,0.3
0.5515768527984619,0.32,-0.12,-0.1,0.35
0.5563020706176758,0.34,-0.19,-0.08,0.39
0.5626630783081055,0.34,-0.23,-0.05,0.41
0.5659439563751221,0.33,-0.24,-0.01,0.4
0.5805580615997314,0.32,-0.25,0.08,0.41
0.5846331119537354,0.33,-0.24,0.19,0.45
0.591332197189331,0.3,-0.23,0.26,0.45
0.5955350399017334,0.24,-0.23,0.29,0.44
0.6120610237121582,0.13,-0.27,0.52,0.6
0.6156730651855469,0.11,-0.32,0.88,0.94
0.6229090690612793,0.14,-0.21,0.71,0.75
0.6289680004119873,0.2,-0.16,0.43,0.5
0.6336760520935059,0.24,-0.17,0.19,0.35
0.6400411128997803,0.24,-0.14,0.08,0.28
0.6463379859924316,0.22,-0.12,0.13,0.28
0.6531829833984375,0.21,-0.12,0.25,0.34
0.6600658893585205,0.23,-0.13,0.31,0.4
0.6643569469451904,0.23,-0.12,0.24,0.35
0.6856791973114014,0.19,-0.13,0.14,0.26
0.6915099620819092,0.16,-0.12,0.02,0.2
0.6960389614105225,0.13,-0.08,-0.05,0.16
0.7034561634063721,0.1,-0.02,-0.04,0.1
0.7105059623718262,0.08,0.05,0.05,0.1
0.7130000591278076,0.06,0.07,0.21,0.22
0.7313358783721924,0.06,-0.01,0.35,0.35
0.7352368831634521,0.16,-0.08,0.42,0.45
0.7426931858062744,0.25,-0.17,0.46,0.55
0.7492690086364746,0.26,-0.25,0.44,0.56
0.7659780979156494,0.17,-0.31,0.16,0.38
0.771852970123291,0.24,-0.21,-0.03,0.32
0.7783069610595703,0.14,-0.13,-0.01,0.19
0.7824270725250244,0.06,-0.07,-0.01,0.09
0.7862331867218018,0.04,-0.02,-0.02,0.04
0.7928919792175293,0.0,0.01,0.0,0.01
0.8035500049591064,-0.02,0.04,0.01,0.04
0.8105318546295166,0.02,0.06,-0.02,0.06
0.8142690658569336,0.06,0.06,-0.01,0.08
0.8230769634246826,0.09,0.05,0.07,0.12
0.8420631885528564,0.12,0.04,0.15,0.19
0.8451359272003174,0.13,0.04,0.15,0.2
0.8515841960906982,0.12,0.08,0.02,0.14
0.8587629795074463,0.16,0.09,-0.11,0.21
0.8628439903259277,0.16,0.06,-0.25,0.3
0.8658010959625244,0.21,-0.03,-0.45,0.49
0.8789730072021484,0.23,-0.07,-0.45,0.51
0.882958173751831,0.15,-0.04,-0.21,0.26
0.8906981945037842,0.12,-0.01,0.02,0.12
0.8955099582672119,0.1,0.0,0.14,0.17
0.9139750003814697,0.08,0.0,0.2,0.21
0.9199039936065674,0.13,-0.06,0.96,0.97
0.9249889850616455,-0.07,-0.15,1.4,1.4
0.9308950901031494,-0.17,0.1,0.43,0.47
0.9445321559906006,0.06,0.17,0.48,0.51
0.9505341053009033,-0.15,0.13,0.05,0.2
0.9608850479125977,-0.15,0.17,-0.23,0.32
0.9646961688995361,-0.07,0.21,-0.36,0.42
0.9726660251617432,-0.04,0.2,-0.3,0.36
0.9801740646362305,-0.07,0.16,-0.11,0.2
0.9950790405273438,-0.09,0.14,0.03,0.16
1.0011940002441406,-0.06,0.13,0.1,0.17
1.0060760974884033,-0.07,0.12,0.1,0.17
1.011626958847046,-0.08,0.13,0.02,0.15
1.0156450271606445,-0.1,0.15,-0.02,0.18
1.021501064300537,-0.11,0.17,-0.02,0.2
1.031013011932373,-0.09,0.1,-0.01,0.13
1.0349318981170654,-0.02,0.04,0.03,0.05
1.0420610904693604,0.02,-0.02,0.11,0.11
1.048854112625122,0.04,-0.07,0.12,0.14
1.0692498683929443,0.05,-0.08,0.08,0.12
1.0725970268249512,0.05,-0.04,0.04,0.07
1.0788419246673584,0.03,-0.01,0.04,0.05
1.0824811458587646,-0.02,0.02,0.08,0.08
1.0895390510559082,-0.04,0.06,0.17,0.18
1.0928308963775635,-0.08,0.14,0.27,0.31
1.1031548976898193,-0.14,0.15,0.34,0.39
1.1103699207305908,-0.05,0.12,0.27,0.29
1.1141600608825684,-0.06,0.1,0.22,0.24
1.1233019828796387,-0.08,0.1,0.2,0.23
1.1422100067138672,-0.05,0.11,0.13,0.17
1.145272970199585,-0.1,0.08,0.11,0.16
1.1520531177520752,-0.02,0.07,0.16,0.17
1.1600091457366943,0.01,0.01,0.12,0.12
1.1643311977386475,0.04,-0.04,0.1,0.11
1.1712539196014404,0.08,-0.04,0.07,0.11
1.180556058883667,0.07,-0.04,0.06,0.1
1.1843469142913818,0.03,0.0,0.02,0.03
1.1920568943023682,0.03,-0.01,-0.03,0.04
1.1985230445861816,0.03,-0.05,0.0,0.05
1.2133510112762451,0.04,-0.07,0.05,0.09
1.219290018081665,0.05,-0.06,0.06,0.09
1.2237999439239502,0.04,-0.03,0.07,0.08
1.2296621799468994,0.01,0.03,0.09,0.09
1.233672857284546,-0.02,0.08,0.1,0.12
1.2402310371398926,-0.02,0.08,0.08,0.11
1.2488970756530762,-0.02,0.05,0.04,0.06
1.2532360553741455,-0.01,0.05,0.02,0.05
1.2598509788513184,0.04,0.03,0.04,0.06
1.2646360397338867,0.07,0.02,0.08,0.1
1.2890589237213135,0.06,0.05,0.13,0.15
1.2920680046081543,-0.01,0.04,0.12,0.12
1.298976182937622,0.0,0.05,0.06,0.07
1.3030641078948975,0.05,0.02,0.03,0.06
1.3098070621490479,-0.03,-0.01,0.07,0.07
1.3127610683441162,-0.07,0.0,0.09,0.11
1.3320050239562988,-0.05,0.06,-0.02,0.08
1.3383691310882568,-0.07,0.11,-0.14,0.19
1.3423378467559814,-0.07,0.1,-0.19,0.22
1.3484880924224854,-0.06,0.06,-0.17,0.19
1.3690168857574463,-0.02,0.03,-0.11,0.11
1.3723840713500977,-0.02,0.1,-0.03,0.1
1.3788301944732666,-0.02,0.09,0.06,0.11
1.382385015487671,-0.07,0.05,0.16,0.18
1.389836072921753,-0.16,0.1,0.27,0.32
1.3933770656585693,-0.21,0.17,0.32,0.41
1.403536081314087,-0.26,0.2,0.21,0.38
1.4106190204620361,-0.27,0.2,0.11,0.35
1.4141461849212646,-0.26,0.21,0.13,0.35
1.4213879108428955,-0.27,0.18,0.15,0.35
1.4392189979553223,-0.27,0.16,0.14,0.34
1.441882848739624,-0.14,0.1,0.04,0.17
1.4486439228057861,0.13,-0.11,-0.18,0.24
1.4526410102844238,0.29,-0.22,-0.36,0.51
1.459367036819458,0.33,-0.19,-0.41,0.55
1.4621341228485107,0.28,-0.15,-0.27,0.41
1.4804120063781738,0.16,-0.16,0.0,0.22
1.4844989776611328,0.12,-0.14,0.33,0.37
1.4913990497589111,0.1,-0.12,0.44,0.46
1.4985079765319824,0.12,-0.1,0.34,0.37
1.5137410163879395,0.15,-0.07,0.19,0.25
1.519766092300415,0.12,-0.04,-0.04,0.13
1.5244290828704834,0.05,0.06,-0.18,0.19
1.530367136001587,0.03,0.13,-0.14,0.19
1.5342261791229248,0.04,0.1,0.02,0.1
1.5411741733551025,0.08,0.03,0.23,0.24
1.5501668453216553,0.19,-0.04,0.3,0.35
1.5552289485931396,0.23,-0.05,0.22,0.32
1.5614831447601318,0.18,0.0,0.18,0.25
1.5688369274139404,0.12,0.0,0.31,0.33
1.5842530727386475,0.09,-0.02,0.41,0.42
1.5900299549102783,0.02,0.02,0.42,0.42
1.5947239398956299,-0.05,0.09,0.34,0.35
1.602320909500122,-0.04,0.11,0.32,0.34
1.6094410419464111,0.01,0.08,0.29,0.3
1.6122138500213623,0.03,0.05,0.28,0.28
1.6220219135284424,-0.02,0.04,0.28,0.28
1.6287059783935547,-0.21,0.15,0.18,0.31
1.632436990737915,-0.04,0.09,0.13,0.16
1.63993501663208,0.03,-0.03,0.06,0.07
1.6555068492889404,0.07,-0.12,-0.08,0.16
1.660964012145996,0.17,-0.14,-0.39,0.44
1.6652119159698486,0.04,-0.04,-0.18,0.18
1.673145055770874,-0.09,-0.04,0.02,0.1
1.6800260543823242,-0.11,-0.05,0.04,0.12
1.6833598613739014,-0.05,-0.05,-0.03,0.07
1.6934170722961426,-0.01,-0.03,-0.13,0.13
1.7002520561218262,0.02,0.0,-0.16,0.16
1.70784592628479,0.02,0.0,-0.14,0.14
1.7120349407196045,0.02,-0.01,-0.12,0.12
1.7297110557556152,0.0,0.03,-0.07,0.07
1.7334480285644531,-0.06,0.09,-0.02,0.1
1.7406129837036133,-0.17,0.16,0.0,0.23
1.7442820072174072,-0.26,0.24,0.02,0.35
1.7517411708831787,-0.33,0.31,0.07,0.45
1.7554271221160889,-0.34,0.33,0.13,0.49
1.7638041973114014,-0.32,0.3,0.17,0.47
1.7717890739440918,-0.27,0.25,0.23,0.43
1.7782809734344482,-0.21,0.23,0.16,0.35
1.782707929611206,-0.18,0.2,0.01,0.26
1.8053760528564453,-0.13,0.14,-0.1,0.21
1.8108799457550049,-0.07,0.1,-0.13,0.17
1.8151960372924805,-0.05,0.11,-0.15,0.19
1.8228280544281006,-0.05,0.12,-0.11,0.17
1.828827142715454,-0.06,0.16,-0.13,0.21
1.8315341472625732,-0.05,0.16,-0.17,0.23
1.8486931324005127,-0.01,0.11,-0.18,0.21
1.853003978729248,0.02,0.13,-0.19,0.23
1.8601601123809814,0.0,0.12,-0.2,0.23
1.8646981716156006,-0.09,0.2,-0.4,0.45
1.8890340328216553,0.09,0.19,-0.29,0.35
1.892090082168579,-0.08,-0.03,0.02,0.08
1.8987550735473633,-0.03,-0.17,0.15,0.22
1.9029829502105713,0.03,-0.14,0.27,0.3
1.909635066986084,0.02,-0.14,0.24,0.27
1.9121980667114258,0.07,-0.11,0.09,0.15
1.9308950901031494,0.08,-0.1,0.06,0.14
1.935046911239624,0.04,-0.05,0.13,0.14
1.942188024520874,0.06,-0.06,0.2,0.21
1.9494099617004395,0.06,0.0,0.27,0.27
1.9653661251068115,0.04,0.0,0.33,0.33
1.9710350036621094,-0.01,0.0,0.37,0.37
1.9790451526641846,-0.01,0.05,0.34,0.34
1.9821221828460693,0.02,0.07,0.25,0.26
1.9945151805877686,0.1,0.11,0.17,0.22
2.0006160736083984,0.11,0.09,0.14,0.19
2.0113770961761475,0.09,0.07,0.19,0.22
2.0152509212493896,0.09,0.09,0.3,0.32
2.0221221446990967,0.1,0.07,0.33,0.35
2.0295450687408447,0.13,0.04,0.29,0.32
2.0450170040130615,0.13,0.03,0.22,0.25
2.0506820678710938,0.14,0.04,0.16,0.21
2.0558021068573,0.13,0.05,0.08,0.16
2.062474012374878,0.13,0.02,0.09,0.15
2.068969964981079,0.11,-0.01,0.14,0.17
2.0726511478424072,0.11,-0.02,0.13,0.17
2.0805370807647705,0.11,-0.02,0.09,0.14
2.0840749740600586,0.1,-0.04,0.0,0.1
2.0916640758514404,0.1,-0.04,-0.02,0.1
2.0977418422698975,0.07,-0.04,0.01,0.08
2.1131110191345215,0.05,-0.02,0.02,0.05
2.119296073913574,0.03,-0.01,-0.01,0.03
2.123905897140503,0.0,0.01,-0.02,0.02
2.129777193069458,0.02,0.03,-0.02,0.04
2.1334640979766846,0.02,0.03,-0.01,0.03
2.14040207862854,-0.02,0.05,-0.02,0.05
2.151158094406128,0.01,0.04,-0.04,0.05
2.155241012573242,0.02,0.03,-0.03,0.04
2.1617181301116943,0.04,0.04,-0.02,0.06
2.1692111492156982,0.05,0.06,0.0,0.07
2.188789129257202,0.04,0.05,0.02,0.06
2.1919000148773193,0.02,0.03,0.04,0.05
2.1988019943237305,-0.02,0.04,0.07,0.08
2.2028989791870117,-0.03,0.04,0.11,0.12
2.209778070449829,0.0,0.01,0.15,0.15
2.213042974472046,0.07,0.01,0.17,0.18
2.231001138687134,0.07,0.01,0.15,0.16
2.2345690727233887,0.03,0.02,0.12,0.12
2.241487979888916,-0.02,0.04,0.07,0.08
2.2483270168304443,-0.05,0.06,0.08,0.11
2.263679027557373,-0.07,0.05,0.03,0.09
2.269745111465454,-0.05,0.04,0.02,0.06
2.2744200229644775,-0.02,0.03,0.01,0.03
2.280384063720703,0.0,0.04,0.05,0.06
2.294671058654785,-0.01,0.07,0.11,0.13
2.3005058765411377,-0.01,0.06,0.14,0.15
2.3106560707092285,-0.01,0.06,0.12,0.13
2.314066171646118,-0.01,0.04,0.07,0.08
2.320789098739624,0.0,0.04,0.08,0.08
2.3279168605804443,0.0,0.03,0.12,0.12
2.3440191745758057,-0.01,0.01,0.18,0.18
2.3499629497528076,-0.01,0.02,0.2,0.2
2.3538339138031006,0.0,0.0,0.12,0.12
2.36035418510437,-0.01,0.0,0.03,0.03
2.3640990257263184,-0.02,0.02,0.01,0.03
2.3694519996643066,-0.03,0.03,-0.01,0.04
2.3800151348114014,-0.04,0.03,-0.01,0.05
2.383755922317505,-0.04,0.04,0.05,0.07
2.3909671306610107,-0.03,0.03,0.1,0.1
2.398236036300659,-0.02,-0.02,0.15,0.15
2.4141550064086914,-0.02,-0.04,0.17,0.17
2.4199490547180176,-0.01,-0.03,0.14,0.14
2.427051067352295,-0.03,0.01,0.07,0.07
2.4305741786956787,-0.04,0.02,0.02,0.04
2.444378137588501,-0.04,0.04,0.0,0.05
2.449748992919922,-0.01,0.07,0.02,0.07
2.46073317527771,0.01,0.06,0.09,0.1
2.4645111560821533,0.02,0.06,0.14,0.15
2.470947027206421,0.04,0.04,0.15,0.16
2.477912187576294,0.04,0.0,0.15,0.15
2.4923079013824463,0.02,-0.03,0.2,0.2
2.4983069896698,0.0,-0.04,0.3,0.3
2.502465009689331,0.0,0.01,0.26,0.26
2.509603977203369,0.01,0.07,0.15,0.16
2.5135371685028076,-0.01,0.07,0.06,0.09
2.52911114692688,0.0,0.07,-0.01,0.07
2.538872003555298,0.01,0.09,-0.06,0.1
2.543360948562622,0.01,0.06,-0.09,0.1
2.549320936203003,-0.02,0.07,-0.07,0.1
2.5579190254211426,-0.03,0.06,-0.03,0.07
2.5742690563201904,-0.05,0.03,0.03,0.06
2.5801689624786377,-0.04,-0.01,0.06,0.07
2.584472894668579,0.02,-0.01,0.09,0.09
2.5920140743255615,0.04,0.0,0.08,0.08
2.5983431339263916,0.03,-0.01,0.06,0.06
2.6014459133148193,0.03,-0.01,0.04,0.05
2.6102969646453857,0.02,0.0,0.01,0.02
2.6145060062408447,-0.01,0.04,0.0,0.04
2.6282780170440674,-0.02,0.05,-0.01,0.05
2.632721185684204,-0.03,0.06,-0.02,0.06
2.6520490646362305,-0.01,0.07,0.01,0.07
2.6576731204986572,0.01,0.05,0.08,0.09
2.6623339653015137,0.01,0.01,0.18,0.18
2.669153928756714,-0.01,0.01,0.22,0.22
2.673474073410034,0.0,-0.01,0.17,0.17
2.679094076156616,0.04,0.0,0.14,0.14
2.689702033996582,0.04,0.0,0.13,0.13
2.6938111782073975,0.0,0.0,0.17,0.17
2.6997501850128174,-0.01,0.03,0.2,0.2
2.704540967941284,0.02,0.05,0.2,0.2
2.7224371433258057,-0.02,-0.02,0.08,0.08
2.7279961109161377,-0.01,-0.04,0.02,0.04
2.73233699798584,0.06,-0.01,-0.06,0.08
2.7401530742645264,0.18,0.14,-0.11,0.25
2.744109869003296,0.18,0.1,-0.02,0.2
2.749035120010376,0.32,-0.11,0.12,0.35
2.764045000076294,0.06,-0.11,0.18,0.21
2.770733118057251,-0.17,0.04,0.13,0.21
2.7773349285125732,-0.22,0.09,-0.01,0.23
2.781709909439087,-0.2,0.01,-0.16,0.25
2.8084239959716797,-0.06,-0.06,-0.26,0.27
2.8115689754486084,0.05,0.24,-0.1,0.26
2.818490982055664,-0.01,0.22,0.1,0.24
2.8231661319732666,-0.03,0.07,0.23,0.24
2.8292181491851807,0.03,0.09,0.34,0.35
2.8331968784332275,0.06,0.08,0.31,0.32
2.8449900150299072,0.08,0.04,0.14,0.16
2.851940870285034,0.12,-0.02,-0.03,0.12
2.8589329719543457,0.08,-0.02,-0.16,0.18
2.8632490634918213,0.03,0.01,-0.19,0.19
2.8818540573120117,0.01,0.04,-0.11,0.11
2.888153076171875,-0.01,0.04,0.01,0.04
2.8939859867095947,-0.02,0.02,0.13,0.13
2.9008049964904785,-0.01,0.0,0.24,0.24
2.9117581844329834,-0.02,-0.01,0.33,0.33
2.9149720668792725,-0.01,0.0,0.34,0.34
2.928208112716675,0.01,-0.01,0.34,0.34
2.9321670532226562,-0.01,-0.03,0.34,0.34
2.938667058944702,0.0,-0.01,0.29,0.29
2.943418025970459,0.03,0.01,0.23,0.23
2.9614760875701904,0.03,0.01,0.15,0.15
2.9647669792175293,0.0,0.04,0.14,0.14
2.9718868732452393,-0.01,0.06,0.13,0.14
2.9786670207977295,0.01,0.06,0.09,0.1
2.9823720455169678,0.03,0.03,0.09,0.09
2.99338698387146,0.0,0.01,0.12,0.12
3.002948045730591,0.0,0.06,0.11,0.12
3.009528875350952,0.02,0.05,0.08,0.09
3.0131289958953857,0.02,0.05,0.06,0.08
3.0197219848632812,0.0,0.05,0.01,0.05
3.0374791622161865,-0.01,0.05,-0.04,0.06
3.041005849838257,0.0,0.05,-0.08,0.09
3.047585964202881,0.0,0.04,-0.08,0.08
3.05049204826355,0.0,0.04,-0.06,0.07
3.058716058731079,0.01,0.04,-0.03,0.05
3.061976194381714,0.0,0.05,-0.02,0.05
3.071078062057495,-0.04,0.05,-0.05,0.08
3.078015089035034,-0.05,0.05,-0.07,0.09
3.081476926803589,-0.03,0.05,-0.01,0.05
3.0885798931121826,-0.01,0.08,0.08,0.11
3.1078431606292725,-0.01,0.12,0.14,0.18
3.1105000972747803,0.01,0.1,0.16,0.18
3.1170599460601807,0.0,0.07,0.1,0.12
3.120694875717163,-0.02,0.12,0.01,0.12
3.1274521350860596,-0.02,0.16,-0.05,0.16
3.1302649974823,0.0,0.15,-0.13,0.19
3.1409339904785156,0.06,0.12,-0.17,0.21
3.1479690074920654,0.16,0.09,-0.14,0.23
3.1516048908233643,0.14,0.1,-0.07,0.18
3.1593191623687744,0.07,0.14,-0.02,0.15
3.1771750450134277,0.01,0.23,0.0,0.23
3.1804590225219727,-0.08,0.16,0.06,0.18
3.187190055847168,-0.07,0.07,0.08,0.12
3.192254066467285,-0.02,0.09,0.03,0.09
3.199028968811035,0.0,0.12,-0.1,0.15
3.202380895614624,0.0,0.17,-0.23,0.28
3.21240496635437,0.01,0.2,-0.3,0.36
3.2195498943328857,0.05,0.18,-0.3,0.35
3.228149175643921,0.06,0.18,-0.27,0.33
3.232854127883911,0.08,0.17,-0.29,0.34
3.252717971801758,0.13,0.18,-0.38,0.44
3.2592289447784424,0.15,0.17,-0.47,0.52
3.263720989227295,0.14,0.16,-0.51,0.55
3.2708590030670166,0.1,0.18,-0.44,0.48
3.2777299880981445,0.11,0.17,-0.33,0.38
3.280457019805908,0.14,0.14,-0.24,0.31
3.299241065979004,0.21,0.08,-0.2,0.3
3.303581953048706,0.26,-0.06,-0.15,0.3
3.3112971782684326,0.37,-0.52,0.42,0.76
3.318305015563965,0.43,-0.38,0.29,0.64
3.338060140609741,0.36,-0.2,0.01,0.41
3.3416988849639893,0.29,-0.14,-0.17,0.36
3.3487279415130615,0.21,-0.09,-0.23,0.32
3.3545470237731934,0.1,-0.04,-0.22,0.24
3.362056016921997,0.04,0.02,-0.16,0.16
3.36761212348938,0.03,0.08,-0.15,0.17
3.378728151321411,0.0,0.1,-0.18,0.2
3.382593870162964,-0.05,0.08,-0.2,0.22
3.3897621631622314,-0.07,0.05,-0.2,0.21
3.3981668949127197,-0.03,-0.05,-0.13,0.14
3.4180970191955566,0.04,-0.15,-0.11,0.19
3.421600103378296,0.05,-0.17,-0.13,0.21
3.4288430213928223,0.08,-0.07,-0.16,0.19
3.433582067489624,0.08,0.05,-0.32,0.33
3.440103054046631,0.12,0.18,-0.52,0.56
3.4434878826141357,0.16,0.11,-0.63,0.65
3.4538040161132812,0.15,-0.13,-0.73,0.75
3.4612040519714355,-0.78,-0.22,-0.07,0.81
3.4674198627471924,-0.13,0.26,0.11,0.31
3.472524881362915,0.91,0.13,-0.4,1.0
3.4898250102996826,0.93,-0.68,-0.34,1.2
3.4934439659118652,1.48,-1.25,-1.07,2.21
3.500213861465454,2.05,-1.93,-2.32,3.64
3.5081520080566406,2.52,-1.1,-1.17,2.98
3.512420892715454,3.15,0.05,-0.1,3.15
3.518825054168701,3.02,0.48,-0.96,3.2
3.5287389755249023,1.13,0.1,-1.49,1.87
3.5326101779937744,-4.98,1.49,-1.07,5.3
3.5398080348968506,-12.29,5.92,-0.02,13.64
3.5480258464813232,-5.19,0.19,-1.04,5.29
3.562366008758545,1.47,-4.35,-2.04,5.02
3.5684659481048584,2.53,-0.56,-2.58,3.65
3.5731289386749268,1.92,1.33,-1.97,3.05
3.5792410373687744,-0.81,-0.34,-0.52,1.02
3.5866479873657227,-1.78,-0.81,1.18,2.28
3.590847969055176,-1.82,-0.78,0.64,2.08
3.599621057510376,-0.36,-0.9,0.48,1.08
3.6064698696136475,0.08,-0.36,0.89,0.96
3.6106669902801514,0.21,-0.25,0.67,0.74
3.6176869869232178,0.53,-0.07,1.21,1.32
3.636734962463379,1.08,-0.19,1.69,2.01
3.640104055404663,1.22,-0.37,1.6,2.04
3.647029161453247,0.95,-0.24,1.6,1.87
3.6508870124816895,1.31,-0.6,1.51,2.08
3.6592071056365967,1.2,-0.16,1.65,2.04
3.6624770164489746,0.59,0.61,2.25,2.4
3.672065019607544,0.05,1.01,1.95,2.19
3.679229974746704,-0.03,0.68,1.01,1.21
3.6828980445861816,0.14,0.37,-0.06,0.4
3.6902520656585693,0.29,0.12,-0.58,0.65
3.7073750495910645,0.12,0.1,-0.17,0.23
3.7103869915008545,0.16,0.24,0.65,0.71
3.717168092727661,0.12,0.57,1.59,1.69
3.721529006958008,-0.52,0.62,1.42,1.63
3.7298710346221924,-0.9,0.23,-0.25,0.96
3.736988067626953,0.28,-0.52,-0.07,0.59
3.743833065032959,-0.18,-0.43,0.06,0.47
3.750319004058838,-0.75,-0.57,0.66,1.15
3.7578208446502686,-0.32,-0.04,0.23,0.39
3.762477159500122,-0.23,-0.32,1.07,1.14
3.7807209491729736,-0.73,-0.27,0.87,1.16
3.7868549823760986,-0.78,-0.47,0.64,1.11
3.7918221950531006,-0.36,-0.85,0.74,1.18
3.798487901687622,0.27,-1.59,0.46,1.67
3.8027660846710205,-0.19,-0.61,0.28,0.69
3.8090121746063232,-0.34,0.01,-0.23,0.41
3.81784987449646,-0.55,0.39,-1.09,1.28
3.8233258724212646,-0.75,0.58,-1.94,2.15
3.8294930458068848,-0.55,0.44,-2.91,2.99
3.8371469974517822,-0.13,0.34,-3.47,3.48
3.852771043777466,0.15,0.09,-3.88,3.88
3.858590841293335,0.18,-0.42,-4.28,4.3
3.8635079860687256,-0.08,-0.69,-4.38,4.43
3.8712289333343506,-0.4,-0.69,-4.23,4.3
3.8778820037841797,-0.75,-0.54,-3.79,3.9
3.8806231021881104,-1.04,-0.58,-3.82,4.0
3.899651050567627,-1.19,-0.84,-4.55,4.77
3.9070420265197754,-0.83,-1.11,-5.37,5.54
3.911591053009033,0.06,-1.47,-5.59,5.78
3.9193270206451416,0.45,-1.89,-5.6,5.92
3.93674898147583,0.14,-2.28,-5.56,6.01
3.9401628971099854,-0.02,-2.83,-4.69,5.47
3.947479009628296,-0.39,-3.19,-3.75,4.93
3.9516069889068604,-0.43,-3.57,-3.14,4.77
3.959599018096924,-0.02,-3.63,-3.13,4.79
3.9629170894622803,0.05,-3.61,-2.95,4.66
3.973283052444458,0.3,-3.82,-2.65,4.65
3.980031967163086,0.41,-3.94,-2.9,4.9
3.9860329627990723,0.27,-3.97,-3.55,5.33
3.991469144821167,-0.01,-3.61,-4.39,5.68
4.008177042007446,-0.07,-3.23,-4.81,5.79
4.01186203956604,-0.12,-2.95,-4.55,5.42
4.0191810131073,-0.18,-2.97,-3.71,4.75
4.027601957321167,-0.28,-3.07,-2.05,3.7
4.03413200378418,-0.7,-3.05,-0.87,3.24
4.037248849868774,-0.77,-2.98,-0.88,3.2
4.046208143234253,-0.35,-2.72,-1.13,2.96
4.0532848834991455,-0.37,-2.34,-0.68,2.46
4.057919979095459,-0.9,-1.81,0.16,2.02
4.065360069274902,-1.31,-1.28,1.39,2.29
4.082715034484863,-0.86,-1.08,1.91,2.35
4.086021184921265,0.04,-1.03,2.4,2.61
4.093749046325684,0.22,-0.65,1.89,2.01
4.097921133041382,-0.23,0.13,0.69,0.73
4.114713907241821,-0.72,1.16,0.18,1.37
4.117902040481567,-1.09,1.94,1.44,2.65
4.129069089889526,-1.75,2.18,2.69,3.87
4.134968042373657,-2.08,2.27,2.47,3.94
4.140588045120239,-1.51,2.37,2.48,3.74
4.147277116775513,-0.74,2.56,2.82,3.87
4.165492057800293,0.09,2.58,3.21,4.11
4.169555902481079,0.72,2.81,2.92,4.11
4.176736116409302,0.94,3.16,2.75,4.29
4.182976961135864,0.82,3.59,2.62,4.51
4.195607900619507,0.58,4.16,2.34,4.8
4.199213027954102,0.91,4.54,2.1,5.08
4.213453054428101,0.67,4.16,2.64,4.97
4.218403100967407,0.27,4.03,3.57,5.39
4.225001096725464,-0.19,4.12,3.92,5.69
4.232525110244751,-0.47,4.56,4.46,6.39
4.248584032058716,-0.41,5.03,5.36,7.36
4.253894090652466,0.09,5.98,6.74,9.01
4.259469032287598,1.11,6.88,8.52,11.0
4.265318155288696,1.33,7.47,10.53,12.97
4.270222902297974,1.35,7.69,12.76,14.95
4.276746034622192,1.88,8.31,14.83,17.1
4.286249876022339,2.88,9.23,15.97,18.66
4.293177843093872,4.73,9.95,17.4,20.59
4.297323942184448,6.43,10.27,19.35,22.83
4.304741144180298,7.1,10.72,20.98,24.6
4.32309889793396,6.64,11.03,21.38,24.95
4.326325178146362,5.84,11.21,19.84,23.52
4.333604097366333,6.1,11.53,16.68,21.17
4.339559078216553,6.49,12.12,12.55,18.61
4.346192121505737,6.26,12.36,9.73,16.93
4.349961996078491,6.27,11.65,10.47,16.87
4.359351873397827,6.28,11.04,12.14,17.56
4.36603307723999,6.21,10.67,13.11,18.0
4.370835065841675,6.65,10.81,11.38,17.04
4.379491090774536,6.54,11.39,6.54,14.67
4.397459983825684,5.4,11.97,1.72,13.24
4.403649091720581,5.05,10.79,2.18,12.11
4.409276962280273,5.37,9.17,7.94,13.26
4.414964914321899,5.15,6.03,13.86,15.96
4.4196460247039795,1.65,2.32,19.06,19.27
4.425382852554321,-5.32,-1.12,21.76,22.42
4.435115098953247,-10.83,-3.38,20.54,23.46
4.43994402885437,-13.04,-4.72,16.01,21.18
4.445764064788818,-12.6,-5.39,9.36,16.59
4.453250169754028,-10.59,-6.55,2.3,12.66
4.470264196395874,-7.94,-8.27,-3.62,12.02
4.475528001785278,-6.37,-9.01,-6.67,12.89
4.482370138168335,-4.01,-10.65,-7.95,13.88
4.486591100692749,-1.09,-11.92,-9.61,15.35
4.493412017822266,-0.55,-10.94,-11.34,15.76
4.49665904045105,-2.18,-9.44,-11.92,15.36
4.515894174575806,-4.55,-8.84,-11.23,14.99
4.521920919418335,-6.22,-9.36,-9.67,14.82
4.5260231494903564,-6.59,-10.85,-6.98,14.48
4.532624959945679,-5.66,-13.06,-2.5,14.45
4.548174142837524,-4.6,-14.44,2.27,15.32
4.5536370277404785,-4.31,-13.64,4.73,15.06
4.559442043304443,-3.14,-12.85,2.27,13.42
4.565868139266968,-1.63,-12.76,-3.54,13.34
4.57293701171875,0.12,-12.24,-9.01,15.19
4.576141119003296,1.45,-10.96,-13.24,17.24
4.585247993469238,1.43,-9.91,-15.03,18.05
4.5910680294036865,0.27,-9.39,-14.47,17.25
4.594836950302124,-1.28,-8.83,-11.11,14.24
4.603425979614258,-2.07,-8.62,-8.07,11.98
4.620546102523804,-2.15,-8.82,-6.43,11.12
4.624011993408203,-2.18,-8.55,-5.69,10.49
4.631602048873901,-1.17,-8.6,-5.36,10.2
4.635824918746948,0.21,-8.62,-4.8,9.86
4.643078088760376,0.77,-8.77,-4.29,9.79
4.646014928817749,0.57,-8.86,-4.18,9.81
4.659229040145874,0.16,-9.1,-3.97,9.92
4.663433074951172,-0.42,-9.2,-3.3,9.78
4.669603109359741,-0.67,-9.21,-2.6,9.59
4.674983978271484,-0.39,-9.35,-1.92,9.55
4.692317962646484,-0.07,-9.13,-1.42,9.24
4.696102857589722,0.7,-8.86,-1.06,8.95
4.7035369873046875,1.75,-8.83,-0.47,9.01
4.7116310596466064,2.19,-8.63,-0.13,8.9
4.715357065200806,1.91,-8.4,-0.33,8.62
4.720865964889526,1.26,-8.12,-1.04,8.28
4.7319629192352295,0.7,-7.84,-2.19,8.17
4.738188028335571,0.49,-7.91,-3.56,8.68
4.743160009384155,0.56,-8.06,-4.57,9.28
4.750658988952637,0.88,-8.3,-5.18,9.82
4.769034147262573,1.12,-8.53,-5.53,10.22
4.7724769115448,0.98,-8.49,-5.76,10.3
4.780526876449585,0.56,-8.56,-5.98,10.45
4.78510308265686,0.73,-8.44,-6.23,10.51
4.7924580574035645,1.03,-8.48,-6.32,10.62
4.7954261302948,1.47,-8.85,-6.34,10.98
4.8055479526519775,1.7,-8.84,-6.39,11.03
4.812828063964844,1.73,-8.8,-6.86,11.29
4.818788051605225,1.86,-9.03,-7.28,11.74
4.824730157852173,1.66,-9.49,-6.9,11.85
4.840111017227173,1.23,-9.74,-6.2,11.61
4.849905014038086,0.7,-9.48,-5.38,10.92
4.855419874191284,0.05,-8.75,-4.21,9.71
4.863470077514648,-0.76,-7.72,-3.46,8.49
4.870310068130493,-1.87,-7.03,-2.86,7.81
4.8748650550842285,-3.28,-5.95,-1.99,7.07
4.885285139083862,-4.64,-3.8,-0.86,6.05
4.892721891403198,-5.71,-0.76,0.22,5.76
4.899120092391968,-5.13,1.03,0.8,5.29
4.904428005218506,-3.99,2.6,0.11,4.76
